File: Ex2_NiO_on_Mo_not_calibrated.msa
#FORMAT      : EMSA/MAS Spectral Data File
#VERSION     : 1.0
#TITLE       : Spectrum 2
#DATE        : 28-FEB-2017
#TIME        : 15:22
#OWNER       :
#NPOINTS     : 2048
#NCOLUMNS    : 1
#XUNITS      : channel
#YUNITS      : counts
#DATATYPE    : XY
#XPERCHAN    : 1.0
#OFFSET      : 0.0
#SIGNALTYPE  : EDS
#CHOFFSET    : 20.0
#LIVETIME    : 120.0
#REALTIME    : 130.375
#BEAMKV      : 200.0
#MAGCAM      : 100000.0
#XTILTSTGE   : 0.0
#AZIMANGLE   : 0.0
#ELEVANGLE   : 18.6
#XPOSITION mm: 0.0000
#YPOSITION mm: 0.0000
#ZPOSITION mm: 0.0000
#COMMENT     : File created by HyperSpy version 1.3
#SPECTRUM    : Spectral Data Starts Here
0.000000,
0.000000,
0.000000,
0.000000,
0.000000,
0.000000,
0.000000,
8.000000,
167,
1067,
3021,
5148,
6948,
5543,
2060,
579,
380,
344,
327,
334,
424,
889,
2499,
4969,
5576,
3281,
1181,
350,
248,
247,
289,
348,
476,
1002,
2863,
6506,
8884,
7120,
3346,
1055,
413,
288,
343,
378,
600,
973,
1758,
2359,
2251,
2050,
3526,
8125,
13991,
16281,
11650,
5783,
2192,
893,
471,
337,
260,
201,
209,
195,
198,
191,
219,
215,
212,
218,
201,
225,
227,
222,
226,
208,
215,
213,
225,
235,
205,
210,
223,
225,
220,
208,
222,
200,
208,
192,
193,
208,
197,
210,
202,
265,
273,
298,
281,
256,
224,
208,
203,
172,
182,
195,
187,
183,
181,
156,
193,
178,
189,
188,
170,
190,
170,
159,
174,
168,
179,
179,
194,
250,
280,
280,
299,
230,
215,
196,
198,
233,
189,
191,
157,
178,
169,
173,
140,
157,
164,
138,
138,
164,
142,
129,
158,
148,
130,
149,
129,
140,
141,
141,
145,
127,
131,
133,
145,
137,
133,
137,
126,
123,
117,
108,
106,
118,
117,
116,
118,
113,
113,
127,
113,
109,
113,
96,
91,
110,
94,
102,
100,
118,
96,
97,
98,
105,
89,
93,
104,
98,
99,
87,
120,
92,
89,
97,
90,
101,
97,
100,
89,
93,
90,
90,
109,
99,
102,
77,
86,
100,
96,
93,
107,
78,
94,
90,
98,
91,
88,
80,
84,
83,
80,
95,
86,
91,
85,
85,
76,
91,
79,
83,
88,
83,
84,
74,
76,
91,
85,
84,
78,
73,
74,
73,
80,
83,
88,
74,
78,
73,
77,
82,
67,
69,
80,
85,
69,
82,
74,
73,
72,
89,
66,
70,
69,
75,
66,
71,
78,
64,
70,
62,
81,
63,
65,
68,
76,
70,
70,
79,
63,
78,
75,
61,
69,
72,
75,
63,
74,
75,
84,
90,
101,
123,
119,
119,
100,
82,
85,
77,
73,
80,
74,
68,
70,
68,
54,
57,
59,
67,
54,
68,
65,
64,
59,
61,
59,
76,
62,
78,
55,
65,
83,
73,
100,
91,
99,
107,
125,
113,
98,
87,
75,
87,
65,
66,
62,
51,
67,
71,
62,
60,
67,
54,
61,
54,
66,
75,
57,
62,
56,
72,
74,
77,
80,
82,
86,
63,
58,
72,
80,
71,
85,
82,
93,
89,
83,
91,
98,
106,
141,
161,
288,
540,
1104,
2141,
3744,
6102,
9165,
12499,
14984,
16237,
15873,
13936,
10899,
7721,
5007,
2769,
1451,
744,
350,
181,
124,
105,
81,
85,
83,
71,
73,
71,
69,
77,
72,
79,
71,
89,
89,
78,
86,
99,
97,
137,
147,
239,
325,
551,
815,
1188,
1591,
1919,
2139,
2172,
2008,
1779,
1278,
943,
560,
402,
250,
114,
79,
58,
59,
48,
42,
44,
39,
46,
34,
44,
48,
43,
46,
42,
50,
35,
51,
43,
39,
40,
43,
33,
41,
42,
33,
34,
46,
50,
37,
42,
42,
43,
44,
35,
42,
43,
41,
40,
37,
41,
26,
31,
42,
47,
37,
43,
40,
43,
42,
39,
45,
40,
35,
36,
38,
47,
37,
39,
50,
48,
52,
43,
53,
56,
56,
51,
46,
47,
51,
37,
35,
30,
54,
42,
42,
33,
31,
33,
37,
39,
46,
44,
43,
29,
38,
35,
42,
29,
47,
49,
41,
36,
40,
37,
46,
34,
37,
49,
27,
41,
42,
31,
39,
41,
35,
29,
40,
41,
37,
37,
43,
36,
27,
36,
38,
38,
35,
43,
33,
40,
34,
32,
30,
47,
34,
36,
31,
28,
43,
39,
33,
34,
30,
38,
37,
34,
34,
38,
39,
35,
24,
27,
31,
47,
40,
40,
34,
55,
43,
49,
41,
39,
49,
43,
44,
42,
43,
47,
33,
37,
30,
37,
33,
37,
43,
33,
30,
33,
26,
32,
25,
31,
29,
33,
33,
26,
29,
38,
31,
35,
28,
37,
27,
27,
25,
28,
29,
26,
34,
31,
37,
33,
30,
29,
33,
35,
31,
25,
26,
30,
25,
26,
29,
25,
27,
35,
31,
22,
25,
28,
24,
33,
31,
30,
26,
35,
26,
26,
27,
26,
28,
37,
28,
25,
26,
33,
27,
24,
30,
19,
26,
32,
18,
14,
30,
33,
33,
26,
25,
30,
23,
32,
27,
21,
27,
22,
17,
36,
31,
32,
14,
19,
25,
26,
17,
31,
17,
22,
23,
26,
29,
20,
36,
32,
26,
30,
28,
26,
17,
22,
28,
20,
15,
31,
30,
23,
30,
29,
27,
19,
26,
26,
28,
27,
23,
17,
26,
18,
22,
22,
24,
26,
24,
27,
29,
23,
18,
24,
26,
24,
15,
23,
21,
24,
25,
17,
21,
25,
21,
26,
21,
19,
21,
26,
17,
18,
19,
22,
31,
30,
36,
25,
27,
29,
34,
36,
33,
26,
33,
24,
29,
22,
24,
19,
25,
20,
25,
20,
16,
21,
19,
25,
18,
14,
21,
27,
11,
18,
21,
14,
21,
15,
9.000000,
14,
20,
18,
21,
21,
14,
17,
28,
21,
20,
20,
26,
19,
14,
26,
16,
19,
17,
17,
17,
22,
19,
16,
12,
14,
18,
14,
15,
18,
17,
12,
15,
18,
18,
17,
17,
19,
26,
12,
9.000000,
19,
19,
20,
9.000000,
13,
16,
17,
14,
12,
15,
19,
12,
15,
16,
23,
15,
23,
18,
23,
14,
17,
14,
16,
22,
12,
11,
15,
14,
14,
15,
12,
16,
21,
15,
16,
14,
11,
22,
13,
14,
21,
20,
25,
24,
27,
39,
53,
68,
69,
85,
120,
105,
147,
163,
157,
164,
199,
180,
159,
150,
122,
106,
97,
76,
56,
48,
30,
25,
22,
19,
16,
15,
16,
15,
14,
18,
13,
15,
15,
11,
12,
11,
11,
11,
13,
10,
7.000000,
13,
15,
12,
10,
20,
14,
10,
13,
13,
12,
13,
7.000000,
13,
9.000000,
9.000000,
11,
14,
11,
14,
18,
13,
10,
14,
11,
9.000000,
14,
9.000000,
8.000000,
14,
10,
17,
12,
8.000000,
11,
12,
9.000000,
10,
13,
9.000000,
9.000000,
12,
9.000000,
7.000000,
10,
16,
11,
13,
10,
15,
15,
7.000000,
8.000000,
14,
9.000000,
15,
7.000000,
9.000000,
10,
10,
9.000000,
8.000000,
11,
10,
7.000000,
9.000000,
14,
11,
13,
17,
16,
23,
26,
25,
29,
28,
31,
37,
34,
39,
21,
24,
32,
25,
19,
17,
15,
18,
12,
16,
12,
15,
12,
13,
15,
13,
12,
8.000000,
13,
10,
7.000000,
5.000000,
16,
7.000000,
10,
13,
10,
8.000000,
3.000000,
9.000000,
7.000000,
7.000000,
6.000000,
10,
#ENDOFDATA   : End Of Data and File