File: Lab3_data/TEM_known_NiO_on_Mo_B.emsa
#FORMAT      : EMSA/MAS Spectral Data File
#VERSION     : 1.0
#TITLE       : Spectrum 5
#DATE        : 31-JAN-2022
#TIME        : 02:59
#OWNER       :
#NPOINTS     : 2048.0
#NCOLUMNS    : 1.0
#XUNITS      : keV
#YUNITS      : counts
#DATATYPE    : XY
#XPERCHAN    : 0.01
#OFFSET      : -0.2
#SIGNALTYPE  : EDS
#CHOFFSET    : 20.0
#LIVETIME    : 120.0
#REALTIME    : 160.727
#BEAMKV      : 200.0
#MAGCAM      : 100000.0
#XTILTSTGE   : 0.0
#AZIMANGLE   : 0.0
#ELEVANGLE   : 18.6
#XPOSITION mm: 0.0000
#YPOSITION mm: 0.0000
#ZPOSITION mm: 0.0000
##OXINSTPT   : 4
##OXINSTSTROB: 47.26
##OXINSTELEMS: 26,14,50
##OXINSTLABEL: 26, 6.404, Fe
##OXINSTLABEL: 26, 7.058, Fe
##OXINSTLABEL: 26, 0.705, Fe
##OXINSTLABEL: 26, 0.628, Fe
##OXINSTLABEL: 14, 1.740, Si
##OXINSTLABEL: 50, 3.444, Sn
##OXINSTLABEL: 50, 3.666, Sn
##OXINSTLABEL: 50, 3.905, Sn
##OXINSTLABEL: 50, 3.272, Sn
##OXINSTLABEL: 50, 4.131, Sn
##OXINSTLABEL: 50, 4.377, Sn
##OXINSTLABEL: 50, 3.045, Sn
##OXINSTLABEL: 50, 0.397, Sn
#SPECTRUM    : Spectral Data Starts Here
-0.20000, 0.0
-0.18000, 0.0
-0.16000, 0.0
-0.14000, 0.0
-0.12000, 0.0
-0.10000, 0.0
-0.08000, 0.0
-0.06000, 13.0
-0.04000, 163.0
-0.02000, 1049.0
0.00000, 2895.0
0.02000, 4659.0
0.04000, 5802.0
0.06000, 4724.0
0.08000, 2799.0
0.10000, 2083.0
0.12000, 2010.0
0.14000, 1936.0
0.16000, 2124.0
0.18000, 2417.0
0.20000, 3535.0
0.22000, 8238.0
0.24000, 22825.0
0.26000, 43948.0
0.28000, 48187.0
0.30000, 28221.0
0.32000, 9081.0
0.34000, 2241.0
0.36000, 1134.0
0.38000, 1162.0
0.40000, 1377.0
0.42000, 1666.0
0.44000, 2426.0
0.46000, 5115.0
0.48000, 14800.0
0.50000, 33418.0
0.52000, 46370.0
0.54000, 37030.0
0.56000, 17485.0
0.58000, 5579.0
0.60000, 2153.0
0.62000, 1768.0
0.64000, 1992.0
0.66000, 2561.0
0.68000, 3633.0
0.70000, 6406.0
0.72000, 11363.0
0.74000, 14754.0
0.76000, 14170.0
0.78000, 13271.0
0.80000, 23850.0
0.82000, 54983.0
0.84000, 93727.0
0.86000, 103530.0
0.88000, 74528.0
0.90000, 36002.0
0.92000, 13228.0
0.94000, 5372.0
0.96000, 3066.0
0.98000, 2143.0
1.00000, 1681.0
1.02000, 1481.0
1.04000, 1474.0
1.06000, 1471.0
1.08000, 1573.0
1.10000, 1604.0
1.12000, 1701.0
1.14000, 1613.0
1.16000, 1468.0
1.18000, 1345.0
1.20000, 1348.0
1.22000, 1336.0
1.24000, 1366.0
1.26000, 1266.0
1.28000, 1291.0
1.30000, 1342.0
1.32000, 1297.0
1.34000, 1353.0
1.36000, 1444.0
1.38000, 1434.0
1.40000, 1440.0
1.42000, 1355.0
1.44000, 1330.0
1.46000, 1315.0
1.48000, 1334.0
1.50000, 1355.0
1.52000, 1330.0
1.54000, 1320.0
1.56000, 1317.0
1.58000, 1350.0
1.60000, 1312.0
1.62000, 1320.0
1.64000, 1324.0
1.66000, 1398.0
1.68000, 1575.0
1.70000, 1837.0
1.72000, 1962.0
1.74000, 2070.0
1.76000, 1913.0
1.78000, 1630.0
1.80000, 1493.0
1.82000, 1306.0
1.84000, 1265.0
1.86000, 1161.0
1.88000, 1167.0
1.90000, 1177.0
1.92000, 1135.0
1.94000, 1089.0
1.96000, 1068.0
1.98000, 1083.0
2.00000, 1141.0
2.02000, 1146.0
2.04000, 1126.0
2.06000, 1114.0
2.08000, 1088.0
2.10000, 1061.0
2.12000, 1052.0
2.14000, 1081.0
2.16000, 1015.0
2.18000, 1088.0
2.20000, 1115.0
2.22000, 1136.0
2.24000, 1358.0
2.26000, 1681.0
2.28000, 1929.0
2.30000, 2032.0
2.32000, 1865.0
2.34000, 1585.0
2.36000, 1529.0
2.38000, 1510.0
2.40000, 1509.0
2.42000, 1390.0
2.44000, 1234.0
2.46000, 1171.0
2.48000, 1140.0
2.50000, 1061.0
2.52000, 1011.0
2.54000, 1023.0
2.56000, 985.0
2.58000, 1111.0
2.60000, 1129.0
2.62000, 1225.0
2.64000, 1122.0
2.66000, 1097.0
2.68000, 959.0
2.70000, 931.0
2.72000, 904.0
2.74000, 877.0
2.76000, 868.0
2.78000, 845.0
2.80000, 877.0
2.82000, 891.0
2.84000, 839.0
2.86000, 809.0
2.88000, 830.0
2.90000, 831.0
2.92000, 771.0
2.94000, 795.0
2.96000, 799.0
2.98000, 797.0
3.00000, 794.0
3.02000, 723.0
3.04000, 755.0
3.06000, 700.0
3.08000, 741.0
3.10000, 707.0
3.12000, 726.0
3.14000, 731.0
3.16000, 738.0
3.18000, 675.0
3.20000, 658.0
3.22000, 664.0
3.24000, 669.0
3.26000, 665.0
3.28000, 660.0
3.30000, 687.0
3.32000, 630.0
3.34000, 649.0
3.36000, 634.0
3.38000, 640.0
3.40000, 600.0
3.42000, 635.0
3.44000, 626.0
3.46000, 581.0
3.48000, 591.0
3.50000, 586.0
3.52000, 576.0
3.54000, 570.0
3.56000, 583.0
3.58000, 609.0
3.60000, 547.0
3.62000, 563.0
3.64000, 576.0
3.66000, 594.0
3.68000, 600.0
3.70000, 559.0
3.72000, 598.0
3.74000, 583.0
3.76000, 595.0
3.78000, 513.0
3.80000, 547.0
3.82000, 545.0
3.84000, 545.0
3.86000, 562.0
3.88000, 565.0
3.90000, 533.0
3.92000, 559.0
3.94000, 527.0
3.96000, 528.0
3.98000, 550.0
4.00000, 503.0
4.02000, 544.0
4.04000, 492.0
4.06000, 535.0
4.08000, 499.0
4.10000, 498.0
4.12000, 526.0
4.14000, 501.0
4.16000, 489.0
4.18000, 504.0
4.20000, 498.0
4.22000, 515.0
4.24000, 490.0
4.26000, 502.0
4.28000, 503.0
4.30000, 463.0
4.32000, 440.0
4.34000, 528.0
4.36000, 496.0
4.38000, 501.0
4.40000, 465.0
4.42000, 456.0
4.44000, 478.0
4.46000, 476.0
4.48000, 506.0
4.50000, 489.0
4.52000, 493.0
4.54000, 499.0
4.56000, 497.0
4.58000, 502.0
4.60000, 489.0
4.62000, 439.0
4.64000, 479.0
4.66000, 457.0
4.68000, 453.0
4.70000, 463.0
4.72000, 428.0
4.74000, 459.0
4.76000, 455.0
4.78000, 450.0
4.80000, 452.0
4.82000, 456.0
4.84000, 426.0
4.86000, 454.0
4.88000, 436.0
4.90000, 457.0
4.92000, 421.0
4.94000, 428.0
4.96000, 417.0
4.98000, 443.0
5.00000, 424.0
5.02000, 423.0
5.04000, 425.0
5.06000, 392.0
5.08000, 379.0
5.10000, 401.0
5.12000, 436.0
5.14000, 431.0
5.16000, 404.0
5.18000, 397.0
5.20000, 393.0
5.22000, 379.0
5.24000, 395.0
5.26000, 397.0
5.28000, 385.0
5.30000, 358.0
5.32000, 397.0
5.34000, 404.0
5.36000, 420.0
5.38000, 438.0
5.40000, 438.0
5.42000, 415.0
5.44000, 407.0
5.46000, 384.0
5.48000, 368.0
5.50000, 391.0
5.52000, 373.0
5.54000, 389.0
5.56000, 376.0
5.58000, 369.0
5.60000, 412.0
5.62000, 443.0
5.64000, 455.0
5.66000, 553.0
5.68000, 602.0
5.70000, 613.0
5.72000, 642.0
5.74000, 606.0
5.76000, 612.0
5.78000, 531.0
5.80000, 429.0
5.82000, 393.0
5.84000, 352.0
5.86000, 360.0
5.88000, 377.0
5.90000, 352.0
5.92000, 336.0
5.94000, 365.0
5.96000, 380.0
5.98000, 369.0
6.00000, 362.0
6.02000, 352.0
6.04000, 361.0
6.06000, 354.0
6.08000, 348.0
6.10000, 366.0
6.12000, 329.0
6.14000, 337.0
6.16000, 364.0
6.18000, 351.0
6.20000, 380.0
6.22000, 355.0
6.24000, 374.0
6.26000, 355.0
6.28000, 382.0
6.30000, 445.0
6.32000, 484.0
6.34000, 510.0
6.36000, 624.0
6.38000, 611.0
6.40000, 632.0
6.42000, 577.0
6.44000, 545.0
6.46000, 493.0
6.48000, 476.0
6.50000, 399.0
6.52000, 396.0
6.54000, 390.0
6.56000, 384.0
6.58000, 352.0
6.60000, 321.0
6.62000, 318.0
6.64000, 353.0
6.66000, 331.0
6.68000, 328.0
6.70000, 363.0
6.72000, 336.0
6.74000, 341.0
6.76000, 339.0
6.78000, 351.0
6.80000, 319.0
6.82000, 367.0
6.84000, 358.0
6.86000, 397.0
6.88000, 412.0
6.90000, 458.0
6.92000, 453.0
6.94000, 469.0
6.96000, 440.0
6.98000, 444.0
7.00000, 426.0
7.02000, 451.0
7.04000, 439.0
7.06000, 467.0
7.08000, 398.0
7.10000, 448.0
7.12000, 439.0
7.14000, 454.0
7.16000, 496.0
7.18000, 507.0
7.20000, 571.0
7.22000, 627.0
7.24000, 763.0
7.26000, 1084.0
7.28000, 1909.0
7.30000, 3671.0
7.32000, 7427.0
7.34000, 14165.0
7.36000, 25635.0
7.38000, 41766.0
7.40000, 61289.0
7.42000, 81651.0
7.44000, 96605.0
7.46000, 102742.0
7.48000, 98463.0
7.50000, 84668.0
7.52000, 65668.0
7.54000, 45739.0
7.56000, 28600.0
7.58000, 16230.0
7.60000, 8595.0
7.62000, 4405.0
7.64000, 2299.0
7.66000, 1457.0
7.68000, 1114.0
7.70000, 1009.0
7.72000, 999.0
7.74000, 925.0
7.76000, 813.0
7.78000, 719.0
7.80000, 667.0
7.82000, 573.0
7.84000, 556.0
7.86000, 508.0
7.88000, 538.0
7.90000, 540.0
7.92000, 591.0
7.94000, 620.0
7.96000, 716.0
7.98000, 696.0
8.00000, 760.0
8.02000, 764.0
8.04000, 830.0
8.06000, 966.0
8.08000, 1093.0
8.10000, 1635.0
8.12000, 2379.0
8.14000, 3806.0
8.16000, 5600.0
8.18000, 8024.0
8.20000, 10508.0
8.22000, 12743.0
8.24000, 13969.0
8.26000, 14025.0
8.28000, 12899.0
8.30000, 10852.0
8.32000, 8454.0
8.34000, 6036.0
8.36000, 3924.0
8.38000, 2451.0
8.40000, 1488.0
8.42000, 913.0
8.44000, 632.0
8.46000, 472.0
8.48000, 381.0
8.50000, 352.0
8.52000, 340.0
8.54000, 343.0
8.56000, 308.0
8.58000, 299.0
8.60000, 287.0
8.62000, 285.0
8.64000, 281.0
8.66000, 272.0
8.68000, 266.0
8.70000, 285.0
8.72000, 252.0
8.74000, 261.0
8.76000, 272.0
8.78000, 289.0
8.80000, 279.0
8.82000, 276.0
8.84000, 288.0
8.86000, 285.0
8.88000, 274.0
8.90000, 265.0
8.92000, 270.0
8.94000, 250.0
8.96000, 268.0
8.98000, 283.0
9.00000, 279.0
9.02000, 279.0
9.04000, 314.0
9.06000, 288.0
9.08000, 330.0
9.10000, 310.0
9.12000, 318.0
9.14000, 285.0
9.16000, 299.0
9.18000, 290.0
9.20000, 287.0
9.22000, 275.0
9.24000, 268.0
9.26000, 240.0
9.28000, 280.0
9.30000, 257.0
9.32000, 243.0
9.34000, 259.0
9.36000, 263.0
9.38000, 244.0
9.40000, 235.0
9.42000, 244.0
9.44000, 244.0
9.46000, 243.0
9.48000, 259.0
9.50000, 244.0
9.52000, 245.0
9.54000, 245.0
9.56000, 262.0
9.58000, 278.0
9.60000, 255.0
9.62000, 265.0
9.64000, 292.0
9.66000, 287.0
9.68000, 287.0
9.70000, 285.0
9.72000, 311.0
9.74000, 314.0
9.76000, 303.0
9.78000, 273.0
9.80000, 263.0
9.82000, 241.0
9.84000, 258.0
9.86000, 217.0
9.88000, 245.0
9.90000, 248.0
9.92000, 227.0
9.94000, 228.0
9.96000, 221.0
9.98000, 218.0
10.00000, 241.0
10.02000, 249.0
10.04000, 242.0
10.06000, 238.0
10.08000, 244.0
10.10000, 221.0
10.12000, 211.0
10.14000, 247.0
10.16000, 228.0
10.18000, 232.0
10.20000, 237.0
10.22000, 226.0
10.24000, 213.0
10.26000, 237.0
10.28000, 229.0
10.30000, 209.0
10.32000, 206.0
10.34000, 234.0
10.36000, 232.0
10.38000, 232.0
10.40000, 207.0
10.42000, 224.0
10.44000, 221.0
10.46000, 207.0
10.48000, 202.0
10.50000, 216.0
10.52000, 212.0
10.54000, 226.0
10.56000, 244.0
10.58000, 239.0
10.60000, 223.0
10.62000, 206.0
10.64000, 217.0
10.66000, 211.0
10.68000, 212.0
10.70000, 215.0
10.72000, 209.0
10.74000, 209.0
10.76000, 228.0
10.78000, 205.0
10.80000, 220.0
10.82000, 214.0
10.84000, 218.0
10.86000, 196.0
10.88000, 219.0
10.90000, 211.0
10.92000, 210.0
10.94000, 221.0
10.96000, 199.0
10.98000, 223.0
11.00000, 200.0
11.02000, 215.0
11.04000, 208.0
11.06000, 184.0
11.08000, 209.0
11.10000, 206.0
11.12000, 197.0
11.14000, 218.0
11.16000, 218.0
11.18000, 195.0
11.20000, 201.0
11.22000, 196.0
11.24000, 200.0
11.26000, 215.0
11.28000, 217.0
11.30000, 224.0
11.32000, 211.0
11.34000, 224.0
11.36000, 241.0
11.38000, 207.0
11.40000, 221.0
11.42000, 267.0
11.44000, 248.0
11.46000, 236.0
11.48000, 249.0
11.50000, 220.0
11.52000, 212.0
11.54000, 233.0
11.56000, 212.0
11.58000, 249.0
11.60000, 194.0
11.62000, 197.0
11.64000, 221.0
11.66000, 205.0
11.68000, 209.0
11.70000, 180.0
11.72000, 184.0
11.74000, 186.0
11.76000, 182.0
11.78000, 188.0
11.80000, 180.0
11.82000, 186.0
11.84000, 190.0
11.86000, 200.0
11.88000, 207.0
11.90000, 202.0
11.92000, 185.0
11.94000, 214.0
11.96000, 201.0
11.98000, 178.0
12.00000, 181.0
12.02000, 161.0
12.04000, 199.0
12.06000, 187.0
12.08000, 201.0
12.10000, 183.0
12.12000, 180.0
12.14000, 179.0
12.16000, 184.0
12.18000, 180.0
12.20000, 182.0
12.22000, 193.0
12.24000, 174.0
12.26000, 174.0
12.28000, 184.0
12.30000, 195.0
12.32000, 168.0
12.34000, 165.0
12.36000, 182.0
12.38000, 185.0
12.40000, 173.0
12.42000, 178.0
12.44000, 178.0
12.46000, 198.0
12.48000, 187.0
12.50000, 183.0
12.52000, 177.0
12.54000, 160.0
12.56000, 169.0
12.58000, 183.0
12.60000, 169.0
12.62000, 171.0
12.64000, 192.0
12.66000, 180.0
12.68000, 170.0
12.70000, 171.0
12.72000, 162.0
12.74000, 158.0
12.76000, 173.0
12.78000, 160.0
12.80000, 180.0
12.82000, 176.0
12.84000, 182.0
12.86000, 174.0
12.88000, 153.0
12.90000, 150.0
12.92000, 183.0
12.94000, 190.0
12.96000, 179.0
12.98000, 159.0
13.00000, 173.0
13.02000, 169.0
13.04000, 167.0
13.06000, 172.0
13.08000, 167.0
13.10000, 170.0
13.12000, 155.0
13.14000, 155.0
13.16000, 169.0
13.18000, 154.0
13.20000, 156.0
13.22000, 167.0
13.24000, 175.0
13.26000, 170.0
13.28000, 167.0
13.30000, 174.0
13.32000, 160.0
13.34000, 185.0
13.36000, 170.0
13.38000, 147.0
13.40000, 154.0
13.42000, 143.0
13.44000, 138.0
13.46000, 156.0
13.48000, 157.0
13.50000, 151.0
13.52000, 141.0
13.54000, 159.0
13.56000, 147.0
13.58000, 169.0
13.60000, 150.0
13.62000, 140.0
13.64000, 151.0
13.66000, 153.0
13.68000, 168.0
13.70000, 159.0
13.72000, 139.0
13.74000, 152.0
13.76000, 163.0
13.78000, 146.0
13.80000, 154.0
13.82000, 138.0
13.84000, 157.0
13.86000, 155.0
13.88000, 149.0
13.90000, 166.0
13.92000, 126.0
13.94000, 159.0
13.96000, 160.0
13.98000, 144.0
14.00000, 135.0
14.02000, 156.0
14.04000, 143.0
14.06000, 147.0
14.08000, 143.0
14.10000, 148.0
14.12000, 149.0
14.14000, 153.0
14.16000, 134.0
14.18000, 151.0
14.20000, 143.0
14.22000, 136.0
14.24000, 135.0
14.26000, 145.0
14.28000, 133.0
14.30000, 138.0
14.32000, 135.0
14.34000, 155.0
14.36000, 143.0
14.38000, 121.0
14.40000, 144.0
14.42000, 153.0
14.44000, 137.0
14.46000, 145.0
14.48000, 139.0
14.50000, 125.0
14.52000, 139.0
14.54000, 119.0
14.56000, 133.0
14.58000, 129.0
14.60000, 129.0
14.62000, 121.0
14.64000, 145.0
14.66000, 135.0
14.68000, 143.0
14.70000, 155.0
14.72000, 162.0
14.74000, 178.0
14.76000, 196.0
14.78000, 242.0
14.80000, 306.0
14.82000, 383.0
14.84000, 437.0
14.86000, 516.0
14.88000, 620.0
14.90000, 606.0
14.92000, 677.0
14.94000, 676.0
14.96000, 584.0
14.98000, 520.0
15.00000, 507.0
15.02000, 403.0
15.04000, 339.0
15.06000, 274.0
15.08000, 227.0
15.10000, 169.0
15.12000, 166.0
15.14000, 149.0
15.16000, 158.0
15.18000, 147.0
15.20000, 130.0
15.22000, 119.0
15.24000, 117.0
15.26000, 107.0
15.28000, 127.0
15.30000, 133.0
15.32000, 116.0
15.34000, 113.0
15.36000, 112.0
15.38000, 125.0
15.40000, 132.0
15.42000, 123.0
15.44000, 143.0
15.46000, 130.0
15.48000, 139.0
15.50000, 141.0
15.52000, 127.0
15.54000, 128.0
15.56000, 147.0
15.58000, 154.0
15.60000, 175.0
15.62000, 213.0
15.64000, 233.0
15.66000, 217.0
15.68000, 268.0
15.70000, 265.0
15.72000, 276.0
15.74000, 229.0
15.76000, 263.0
15.78000, 240.0
15.80000, 207.0
15.82000, 175.0
15.84000, 167.0
15.86000, 151.0
15.88000, 134.0
15.90000, 141.0
15.92000, 125.0
15.94000, 130.0
15.96000, 109.0
15.98000, 103.0
16.00000, 101.0
16.02000, 113.0
16.04000, 107.0
16.06000, 99.0
16.08000, 111.0
16.10000, 105.0
16.12000, 95.0
16.14000, 89.0
16.16000, 103.0
16.18000, 105.0
16.20000, 115.0
16.22000, 120.0
16.24000, 102.0
16.26000, 122.0
16.28000, 107.0
16.30000, 92.0
16.32000, 125.0
16.34000, 98.0
16.36000, 99.0
16.38000, 120.0
16.40000, 111.0
16.42000, 101.0
16.44000, 113.0
16.46000, 109.0
16.48000, 107.0
16.50000, 111.0
16.52000, 108.0
16.54000, 113.0
16.56000, 109.0
16.58000, 117.0
16.60000, 118.0
16.62000, 95.0
16.64000, 96.0
16.66000, 107.0
16.68000, 97.0
16.70000, 96.0
16.72000, 101.0
16.74000, 97.0
16.76000, 107.0
16.78000, 101.0
16.80000, 99.0
16.82000, 109.0
16.84000, 91.0
16.86000, 77.0
16.88000, 98.0
16.90000, 92.0
16.92000, 102.0
16.94000, 112.0
16.96000, 97.0
16.98000, 92.0
17.00000, 106.0
17.02000, 91.0
17.04000, 87.0
17.06000, 111.0
17.08000, 119.0
17.10000, 131.0
17.12000, 133.0
17.14000, 167.0
17.16000, 191.0
17.18000, 244.0
17.20000, 335.0
17.22000, 403.0
17.24000, 486.0
17.26000, 654.0
17.28000, 765.0
17.30000, 917.0
17.32000, 1064.0
17.34000, 1175.0
17.36000, 1358.0
17.38000, 1397.0
17.40000, 1485.0
17.42000, 1423.0
17.44000, 1335.0
17.46000, 1277.0
17.48000, 1065.0
17.50000, 1005.0
17.52000, 755.0
17.54000, 609.0
17.56000, 492.0
17.58000, 374.0
17.60000, 273.0
17.62000, 196.0
17.64000, 191.0
17.66000, 135.0
17.68000, 124.0
17.70000, 98.0
17.72000, 89.0
17.74000, 93.0
17.76000, 75.0
17.78000, 106.0
17.80000, 89.0
17.82000, 88.0
17.84000, 87.0
17.86000, 85.0
17.88000, 91.0
17.90000, 78.0
17.92000, 90.0
17.94000, 84.0
17.96000, 79.0
17.98000, 93.0
18.00000, 67.0
18.02000, 92.0
18.04000, 85.0
18.06000, 84.0
18.08000, 82.0
18.10000, 71.0
18.12000, 88.0
18.14000, 80.0
18.16000, 87.0
18.18000, 77.0
18.20000, 89.0
18.22000, 104.0
18.24000, 90.0
18.26000, 82.0
18.28000, 90.0
18.30000, 80.0
18.32000, 81.0
18.34000, 97.0
18.36000, 81.0
18.38000, 77.0
18.40000, 78.0
18.42000, 77.0
18.44000, 75.0
18.46000, 71.0
18.48000, 84.0
18.50000, 73.0
18.52000, 83.0
18.54000, 79.0
18.56000, 84.0
18.58000, 74.0
18.60000, 65.0
18.62000, 80.0
18.64000, 81.0
18.66000, 74.0
18.68000, 59.0
18.70000, 70.0
18.72000, 77.0
18.74000, 71.0
18.76000, 63.0
18.78000, 72.0
18.80000, 75.0
18.82000, 68.0
18.84000, 66.0
18.86000, 83.0
18.88000, 65.0
18.90000, 82.0
18.92000, 67.0
18.94000, 70.0
18.96000, 69.0
18.98000, 75.0
19.00000, 74.0
19.02000, 64.0
19.04000, 69.0
19.06000, 68.0
19.08000, 62.0
19.10000, 71.0
19.12000, 74.0
19.14000, 80.0
19.16000, 63.0
19.18000, 62.0
19.20000, 65.0
19.22000, 72.0
19.24000, 77.0
19.26000, 76.0
19.28000, 76.0
19.30000, 81.0
19.32000, 85.0
19.34000, 84.0
19.36000, 84.0
19.38000, 105.0
19.40000, 129.0
19.42000, 138.0
19.44000, 162.0
19.46000, 196.0
19.48000, 213.0
19.50000, 240.0
19.52000, 261.0
19.54000, 263.0
19.56000, 270.0
19.58000, 267.0
19.60000, 246.0
19.62000, 240.0
19.64000, 210.0
19.66000, 166.0
19.68000, 148.0
19.70000, 119.0
19.72000, 113.0
19.74000, 88.0
19.76000, 103.0
19.78000, 86.0
19.80000, 85.0
19.82000, 80.0
19.84000, 83.0
19.86000, 91.0
19.88000, 90.0
19.90000, 87.0
19.92000, 89.0
19.94000, 70.0
19.96000, 84.0
19.98000, 81.0
20.00000, 71.0
20.02000, 70.0
20.04000, 60.0
20.06000, 67.0
20.08000, 60.0
20.10000, 46.0
20.12000, 46.0
20.14000, 54.0
20.16000, 48.0
20.18000, 53.0
20.20000, 33.0
20.22000, 45.0
20.24000, 50.0
20.26000, 43.0
20.27000, 54.0
#ENDOFDATA   :