File: Lab3_data/TEM_known_NiO_on_Mo_A.emsa
#FORMAT      : EMSA/MAS Spectral Data File
#VERSION     : 1.0
#TITLE       : Spectrum 1
#DATE        : 31-JAN-2022
#TIME        : 02:39
#OWNER       :
#NPOINTS     : 2048.0
#NCOLUMNS    : 1.0
#XUNITS      : keV
#YUNITS      : counts
#DATATYPE    : XY
#XPERCHAN    : 0.01
#OFFSET      : -0.2
#SIGNALTYPE  : EDS
#CHOFFSET    : 20.0
#LIVETIME    : 120.0
#REALTIME    : 160.078
#BEAMKV      : 200.0
#MAGCAM      : 100000.0
#XTILTSTGE   : 0.0
#AZIMANGLE   : 0.0
#ELEVANGLE   : 18.6
#XPOSITION mm: 0.0000
#YPOSITION mm: 0.0000
#ZPOSITION mm: 0.0000
##OXINSTPT   : 4
##OXINSTSTROB: 47.27
##OXINSTELEMS: 26,14,50
##OXINSTLABEL: 26, 6.404, Fe
##OXINSTLABEL: 26, 7.058, Fe
##OXINSTLABEL: 26, 0.705, Fe
##OXINSTLABEL: 26, 0.628, Fe
##OXINSTLABEL: 14, 1.740, Si
##OXINSTLABEL: 50, 3.444, Sn
##OXINSTLABEL: 50, 3.666, Sn
##OXINSTLABEL: 50, 3.905, Sn
##OXINSTLABEL: 50, 3.272, Sn
##OXINSTLABEL: 50, 4.131, Sn
##OXINSTLABEL: 50, 4.377, Sn
##OXINSTLABEL: 50, 3.045, Sn
##OXINSTLABEL: 50, 0.397, Sn
#SPECTRUM    : Spectral Data Starts Here
-0.20000, 0.0
-0.18000, 0.0
-0.16000, 0.0
-0.14000, 0.0
-0.12000, 0.0
-0.10000, 0.0
-0.08000, 0.0
-0.06000, 13.0
-0.04000, 142.0
-0.02000, 1044.0
0.00000, 2846.0
0.02000, 4664.0
0.04000, 5775.0
0.06000, 4734.0
0.08000, 2658.0
0.10000, 1976.0
0.12000, 1738.0
0.14000, 1883.0
0.16000, 1968.0
0.18000, 2333.0
0.20000, 3356.0
0.22000, 8173.0
0.24000, 22818.0
0.26000, 44667.0
0.28000, 49179.0
0.30000, 28487.0
0.32000, 9159.0
0.34000, 2194.0
0.36000, 1188.0
0.38000, 1262.0
0.40000, 1430.0
0.42000, 1697.0
0.44000, 2414.0
0.46000, 5409.0
0.48000, 15641.0
0.50000, 35518.0
0.52000, 49135.0
0.54000, 39442.0
0.56000, 18443.0
0.58000, 5704.0
0.60000, 2146.0
0.62000, 1677.0
0.64000, 1993.0
0.66000, 2452.0
0.68000, 3455.0
0.70000, 6216.0
0.72000, 10872.0
0.74000, 14268.0
0.76000, 13803.0
0.78000, 12905.0
0.80000, 22544.0
0.82000, 51841.0
0.84000, 87748.0
0.86000, 97298.0
0.88000, 71089.0
0.90000, 34738.0
0.92000, 12999.0
0.94000, 5229.0
0.96000, 2873.0
0.98000, 1995.0
1.00000, 1634.0
1.02000, 1462.0
1.04000, 1449.0
1.06000, 1464.0
1.08000, 1562.0
1.10000, 1598.0
1.12000, 1672.0
1.14000, 1567.0
1.16000, 1471.0
1.18000, 1380.0
1.20000, 1336.0
1.22000, 1273.0
1.24000, 1289.0
1.26000, 1237.0
1.28000, 1297.0
1.30000, 1307.0
1.32000, 1310.0
1.34000, 1436.0
1.36000, 1428.0
1.38000, 1469.0
1.40000, 1414.0
1.42000, 1426.0
1.44000, 1378.0
1.46000, 1292.0
1.48000, 1328.0
1.50000, 1329.0
1.52000, 1333.0
1.54000, 1270.0
1.56000, 1283.0
1.58000, 1395.0
1.60000, 1306.0
1.62000, 1283.0
1.64000, 1279.0
1.66000, 1440.0
1.68000, 1561.0
1.70000, 1871.0
1.72000, 2203.0
1.74000, 2315.0
1.76000, 2124.0
1.78000, 1779.0
1.80000, 1552.0
1.82000, 1282.0
1.84000, 1186.0
1.86000, 1177.0
1.88000, 1128.0
1.90000, 1094.0
1.92000, 1091.0
1.94000, 1087.0
1.96000, 1136.0
1.98000, 1101.0
2.00000, 1081.0
2.02000, 1119.0
2.04000, 1087.0
2.06000, 1093.0
2.08000, 1050.0
2.10000, 1063.0
2.12000, 1009.0
2.14000, 1046.0
2.16000, 1081.0
2.18000, 1033.0
2.20000, 1099.0
2.22000, 1177.0
2.24000, 1395.0
2.26000, 1701.0
2.28000, 2022.0
2.30000, 2094.0
2.32000, 1905.0
2.34000, 1755.0
2.36000, 1545.0
2.38000, 1472.0
2.40000, 1435.0
2.42000, 1439.0
2.44000, 1264.0
2.46000, 1171.0
2.48000, 1113.0
2.50000, 1093.0
2.52000, 1075.0
2.54000, 1021.0
2.56000, 1049.0
2.58000, 1117.0
2.60000, 1142.0
2.62000, 1219.0
2.64000, 1162.0
2.66000, 1086.0
2.68000, 1008.0
2.70000, 930.0
2.72000, 879.0
2.74000, 874.0
2.76000, 886.0
2.78000, 854.0
2.80000, 911.0
2.82000, 882.0
2.84000, 819.0
2.86000, 824.0
2.88000, 829.0
2.90000, 845.0
2.92000, 763.0
2.94000, 800.0
2.96000, 828.0
2.98000, 830.0
3.00000, 751.0
3.02000, 782.0
3.04000, 722.0
3.06000, 747.0
3.08000, 747.0
3.10000, 709.0
3.12000, 731.0
3.14000, 694.0
3.16000, 676.0
3.18000, 697.0
3.20000, 649.0
3.22000, 656.0
3.24000, 656.0
3.26000, 632.0
3.28000, 661.0
3.30000, 640.0
3.32000, 655.0
3.34000, 642.0
3.36000, 613.0
3.38000, 626.0
3.40000, 632.0
3.42000, 637.0
3.44000, 567.0
3.46000, 587.0
3.48000, 616.0
3.50000, 581.0
3.52000, 571.0
3.54000, 565.0
3.56000, 580.0
3.58000, 606.0
3.60000, 587.0
3.62000, 562.0
3.64000, 563.0
3.66000, 561.0
3.68000, 573.0
3.70000, 565.0
3.72000, 553.0
3.74000, 549.0
3.76000, 568.0
3.78000, 530.0
3.80000, 598.0
3.82000, 536.0
3.84000, 539.0
3.86000, 523.0
3.88000, 517.0
3.90000, 515.0
3.92000, 539.0
3.94000, 548.0
3.96000, 502.0
3.98000, 513.0
4.00000, 543.0
4.02000, 514.0
4.04000, 533.0
4.06000, 480.0
4.08000, 541.0
4.10000, 556.0
4.12000, 506.0
4.14000, 518.0
4.16000, 493.0
4.18000, 519.0
4.20000, 474.0
4.22000, 512.0
4.24000, 480.0
4.26000, 464.0
4.28000, 472.0
4.30000, 513.0
4.32000, 480.0
4.34000, 475.0
4.36000, 485.0
4.38000, 468.0
4.40000, 523.0
4.42000, 491.0
4.44000, 486.0
4.46000, 492.0
4.48000, 498.0
4.50000, 473.0
4.52000, 503.0
4.54000, 460.0
4.56000, 475.0
4.58000, 466.0
4.60000, 464.0
4.62000, 467.0
4.64000, 425.0
4.66000, 437.0
4.68000, 428.0
4.70000, 457.0
4.72000, 452.0
4.74000, 417.0
4.76000, 458.0
4.78000, 420.0
4.80000, 444.0
4.82000, 436.0
4.84000, 423.0
4.86000, 450.0
4.88000, 427.0
4.90000, 407.0
4.92000, 441.0
4.94000, 409.0
4.96000, 447.0
4.98000, 428.0
5.00000, 401.0
5.02000, 407.0
5.04000, 397.0
5.06000, 389.0
5.08000, 392.0
5.10000, 375.0
5.12000, 365.0
5.14000, 412.0
5.16000, 411.0
5.18000, 411.0
5.20000, 415.0
5.22000, 391.0
5.24000, 409.0
5.26000, 403.0
5.28000, 410.0
5.30000, 386.0
5.32000, 419.0
5.34000, 432.0
5.36000, 425.0
5.38000, 430.0
5.40000, 426.0
5.42000, 446.0
5.44000, 432.0
5.46000, 411.0
5.48000, 394.0
5.50000, 388.0
5.52000, 380.0
5.54000, 359.0
5.56000, 359.0
5.58000, 382.0
5.60000, 393.0
5.62000, 398.0
5.64000, 484.0
5.66000, 526.0
5.68000, 580.0
5.70000, 614.0
5.72000, 632.0
5.74000, 593.0
5.76000, 569.0
5.78000, 513.0
5.80000, 455.0
5.82000, 411.0
5.84000, 426.0
5.86000, 374.0
5.88000, 367.0
5.90000, 355.0
5.92000, 378.0
5.94000, 357.0
5.96000, 336.0
5.98000, 356.0
6.00000, 341.0
6.02000, 348.0
6.04000, 337.0
6.06000, 385.0
6.08000, 353.0
6.10000, 334.0
6.12000, 347.0
6.14000, 349.0
6.16000, 349.0
6.18000, 341.0
6.20000, 344.0
6.22000, 342.0
6.24000, 342.0
6.26000, 389.0
6.28000, 390.0
6.30000, 408.0
6.32000, 445.0
6.34000, 524.0
6.36000, 584.0
6.38000, 594.0
6.40000, 589.0
6.42000, 581.0
6.44000, 554.0
6.46000, 477.0
6.48000, 426.0
6.50000, 420.0
6.52000, 401.0
6.54000, 357.0
6.56000, 346.0
6.58000, 333.0
6.60000, 320.0
6.62000, 321.0
6.64000, 333.0
6.66000, 324.0
6.68000, 313.0
6.70000, 310.0
6.72000, 326.0
6.74000, 321.0
6.76000, 313.0
6.78000, 325.0
6.80000, 345.0
6.82000, 355.0
6.84000, 375.0
6.86000, 418.0
6.88000, 447.0
6.90000, 480.0
6.92000, 466.0
6.94000, 457.0
6.96000, 448.0
6.98000, 444.0
7.00000, 434.0
7.02000, 452.0
7.04000, 403.0
7.06000, 465.0
7.08000, 467.0
7.10000, 431.0
7.12000, 447.0
7.14000, 477.0
7.16000, 459.0
7.18000, 520.0
7.20000, 536.0
7.22000, 657.0
7.24000, 747.0
7.26000, 1049.0
7.28000, 1921.0
7.30000, 3569.0
7.32000, 7193.0
7.34000, 14067.0
7.36000, 25044.0
7.38000, 41064.0
7.40000, 59750.0
7.42000, 79417.0
7.44000, 94512.0
7.46000, 100540.0
7.48000, 96450.0
7.50000, 83077.0
7.52000, 63753.0
7.54000, 44759.0
7.56000, 27974.0
7.58000, 15835.0
7.60000, 8493.0
7.62000, 4242.0
7.64000, 2238.0
7.66000, 1396.0
7.68000, 1133.0
7.70000, 1074.0
7.72000, 968.0
7.74000, 879.0
7.76000, 835.0
7.78000, 743.0
7.80000, 638.0
7.82000, 574.0
7.84000, 525.0
7.86000, 468.0
7.88000, 458.0
7.90000, 525.0
7.92000, 579.0
7.94000, 600.0
7.96000, 637.0
7.98000, 759.0
8.00000, 750.0
8.02000, 746.0
8.04000, 785.0
8.06000, 884.0
8.08000, 1127.0
8.10000, 1543.0
8.12000, 2370.0
8.14000, 3722.0
8.16000, 5397.0
8.18000, 7801.0
8.20000, 10228.0
8.22000, 12423.0
8.24000, 13680.0
8.26000, 13541.0
8.28000, 12683.0
8.30000, 10616.0
8.32000, 8154.0
8.34000, 5783.0
8.36000, 3846.0
8.38000, 2394.0
8.40000, 1449.0
8.42000, 912.0
8.44000, 592.0
8.46000, 474.0
8.48000, 423.0
8.50000, 364.0
8.52000, 341.0
8.54000, 322.0
8.56000, 359.0
8.58000, 299.0
8.60000, 275.0
8.62000, 285.0
8.64000, 246.0
8.66000, 268.0
8.68000, 270.0
8.70000, 233.0
8.72000, 260.0
8.74000, 294.0
8.76000, 284.0
8.78000, 283.0
8.80000, 294.0
8.82000, 268.0
8.84000, 252.0
8.86000, 276.0
8.88000, 248.0
8.90000, 234.0
8.92000, 275.0
8.94000, 261.0
8.96000, 244.0
8.98000, 272.0
9.00000, 283.0
9.02000, 302.0
9.04000, 294.0
9.06000, 317.0
9.08000, 336.0
9.10000, 335.0
9.12000, 296.0
9.14000, 303.0
9.16000, 313.0
9.18000, 280.0
9.20000, 300.0
9.22000, 263.0
9.24000, 243.0
9.26000, 252.0
9.28000, 250.0
9.30000, 237.0
9.32000, 249.0
9.34000, 252.0
9.36000, 247.0
9.38000, 225.0
9.40000, 226.0
9.42000, 219.0
9.44000, 233.0
9.46000, 227.0
9.48000, 236.0
9.50000, 229.0
9.52000, 227.0
9.54000, 262.0
9.56000, 259.0
9.58000, 240.0
9.60000, 243.0
9.62000, 273.0
9.64000, 254.0
9.66000, 286.0
9.68000, 287.0
9.70000, 274.0
9.72000, 296.0
9.74000, 276.0
9.76000, 259.0
9.78000, 247.0
9.80000, 255.0
9.82000, 233.0
9.84000, 237.0
9.86000, 222.0
9.88000, 240.0
9.90000, 233.0
9.92000, 250.0
9.94000, 239.0
9.96000, 236.0
9.98000, 229.0
10.00000, 213.0
10.02000, 244.0
10.04000, 217.0
10.06000, 225.0
10.08000, 219.0
10.10000, 232.0
10.12000, 241.0
10.14000, 221.0
10.16000, 209.0
10.18000, 230.0
10.20000, 222.0
10.22000, 235.0
10.24000, 235.0
10.26000, 252.0
10.28000, 219.0
10.30000, 225.0
10.32000, 213.0
10.34000, 230.0
10.36000, 182.0
10.38000, 202.0
10.40000, 208.0
10.42000, 204.0
10.44000, 239.0
10.46000, 215.0
10.48000, 196.0
10.50000, 225.0
10.52000, 246.0
10.54000, 218.0
10.56000, 209.0
10.58000, 211.0
10.60000, 217.0
10.62000, 197.0
10.64000, 199.0
10.66000, 213.0
10.68000, 217.0
10.70000, 238.0
10.72000, 229.0
10.74000, 220.0
10.76000, 216.0
10.78000, 226.0
10.80000, 204.0
10.82000, 221.0
10.84000, 216.0
10.86000, 195.0
10.88000, 205.0
10.90000, 201.0
10.92000, 216.0
10.94000, 218.0
10.96000, 219.0
10.98000, 201.0
11.00000, 199.0
11.02000, 208.0
11.04000, 206.0
11.06000, 221.0
11.08000, 208.0
11.10000, 200.0
11.12000, 205.0
11.14000, 199.0
11.16000, 211.0
11.18000, 231.0
11.20000, 203.0
11.22000, 210.0
11.24000, 176.0
11.26000, 207.0
11.28000, 217.0
11.30000, 197.0
11.32000, 202.0
11.34000, 201.0
11.36000, 232.0
11.38000, 252.0
11.40000, 235.0
11.42000, 239.0
11.44000, 239.0
11.46000, 239.0
11.48000, 241.0
11.50000, 230.0
11.52000, 213.0
11.54000, 219.0
11.56000, 235.0
11.58000, 218.0
11.60000, 229.0
11.62000, 211.0
11.64000, 233.0
11.66000, 192.0
11.68000, 197.0
11.70000, 202.0
11.72000, 176.0
11.74000, 188.0
11.76000, 190.0
11.78000, 182.0
11.80000, 162.0
11.82000, 196.0
11.84000, 177.0
11.86000, 200.0
11.88000, 200.0
11.90000, 197.0
11.92000, 214.0
11.94000, 187.0
11.96000, 199.0
11.98000, 198.0
12.00000, 199.0
12.02000, 196.0
12.04000, 192.0
12.06000, 181.0
12.08000, 178.0
12.10000, 175.0
12.12000, 176.0
12.14000, 192.0
12.16000, 197.0
12.18000, 192.0
12.20000, 156.0
12.22000, 167.0
12.24000, 171.0
12.26000, 185.0
12.28000, 149.0
12.30000, 172.0
12.32000, 168.0
12.34000, 200.0
12.36000, 149.0
12.38000, 161.0
12.40000, 193.0
12.42000, 168.0
12.44000, 160.0
12.46000, 177.0
12.48000, 181.0
12.50000, 176.0
12.52000, 203.0
12.54000, 152.0
12.56000, 172.0
12.58000, 168.0
12.60000, 193.0
12.62000, 166.0
12.64000, 179.0
12.66000, 162.0
12.68000, 176.0
12.70000, 150.0
12.72000, 150.0
12.74000, 178.0
12.76000, 153.0
12.78000, 160.0
12.80000, 146.0
12.82000, 179.0
12.84000, 177.0
12.86000, 163.0
12.88000, 166.0
12.90000, 186.0
12.92000, 159.0
12.94000, 173.0
12.96000, 184.0
12.98000, 151.0
13.00000, 170.0
13.02000, 162.0
13.04000, 164.0
13.06000, 170.0
13.08000, 168.0
13.10000, 168.0
13.12000, 148.0
13.14000, 173.0
13.16000, 171.0
13.18000, 169.0
13.20000, 147.0
13.22000, 154.0
13.24000, 172.0
13.26000, 162.0
13.28000, 155.0
13.30000, 154.0
13.32000, 170.0
13.34000, 159.0
13.36000, 166.0
13.38000, 155.0
13.40000, 152.0
13.42000, 145.0
13.44000, 155.0
13.46000, 157.0
13.48000, 155.0
13.50000, 155.0
13.52000, 143.0
13.54000, 154.0
13.56000, 151.0
13.58000, 147.0
13.60000, 152.0
13.62000, 146.0
13.64000, 158.0
13.66000, 171.0
13.68000, 149.0
13.70000, 161.0
13.72000, 138.0
13.74000, 149.0
13.76000, 139.0
13.78000, 139.0
13.80000, 140.0
13.82000, 155.0
13.84000, 150.0
13.86000, 155.0
13.88000, 137.0
13.90000, 166.0
13.92000, 132.0
13.94000, 154.0
13.96000, 151.0
13.98000, 147.0
14.00000, 122.0
14.02000, 151.0
14.04000, 137.0
14.06000, 130.0
14.08000, 144.0
14.10000, 147.0
14.12000, 160.0
14.14000, 141.0
14.16000, 134.0
14.18000, 143.0
14.20000, 165.0
14.22000, 152.0
14.24000, 153.0
14.26000, 149.0
14.28000, 140.0
14.30000, 132.0
14.32000, 133.0
14.34000, 145.0
14.36000, 129.0
14.38000, 149.0
14.40000, 134.0
14.42000, 144.0
14.44000, 143.0
14.46000, 130.0
14.48000, 136.0
14.50000, 146.0
14.52000, 114.0
14.54000, 123.0
14.56000, 134.0
14.58000, 122.0
14.60000, 132.0
14.62000, 120.0
14.64000, 148.0
14.66000, 134.0
14.68000, 150.0
14.70000, 137.0
14.72000, 153.0
14.74000, 182.0
14.76000, 210.0
14.78000, 233.0
14.80000, 301.0
14.82000, 371.0
14.84000, 435.0
14.86000, 492.0
14.88000, 590.0
14.90000, 610.0
14.92000, 644.0
14.94000, 601.0
14.96000, 565.0
14.98000, 552.0
15.00000, 488.0
15.02000, 376.0
15.04000, 307.0
15.06000, 267.0
15.08000, 201.0
15.10000, 181.0
15.12000, 167.0
15.14000, 140.0
15.16000, 134.0
15.18000, 128.0
15.20000, 129.0
15.22000, 132.0
15.24000, 149.0
15.26000, 123.0
15.28000, 114.0
15.30000, 129.0
15.32000, 125.0
15.34000, 110.0
15.36000, 119.0
15.38000, 117.0
15.40000, 121.0
15.42000, 124.0
15.44000, 134.0
15.46000, 116.0
15.48000, 116.0
15.50000, 137.0
15.52000, 137.0
15.54000, 122.0
15.56000, 135.0
15.58000, 161.0
15.60000, 157.0
15.62000, 197.0
15.64000, 227.0
15.66000, 231.0
15.68000, 243.0
15.70000, 257.0
15.72000, 256.0
15.74000, 246.0
15.76000, 248.0
15.78000, 223.0
15.80000, 206.0
15.82000, 188.0
15.84000, 181.0
15.86000, 146.0
15.88000, 141.0
15.90000, 116.0
15.92000, 139.0
15.94000, 129.0
15.96000, 100.0
15.98000, 108.0
16.00000, 103.0
16.02000, 98.0
16.04000, 113.0
16.06000, 125.0
16.08000, 114.0
16.10000, 104.0
16.12000, 117.0
16.14000, 108.0
16.16000, 95.0
16.18000, 102.0
16.20000, 109.0
16.22000, 97.0
16.24000, 118.0
16.26000, 100.0
16.28000, 103.0
16.30000, 97.0
16.32000, 105.0
16.34000, 104.0
16.36000, 109.0
16.38000, 109.0
16.40000, 101.0
16.42000, 109.0
16.44000, 111.0
16.46000, 116.0
16.48000, 109.0
16.50000, 107.0
16.52000, 117.0
16.54000, 105.0
16.56000, 103.0
16.58000, 101.0
16.60000, 104.0
16.62000, 124.0
16.64000, 92.0
16.66000, 101.0
16.68000, 111.0
16.70000, 109.0
16.72000, 99.0
16.74000, 111.0
16.76000, 104.0
16.78000, 94.0
16.80000, 111.0
16.82000, 89.0
16.84000, 91.0
16.86000, 89.0
16.88000, 91.0
16.90000, 88.0
16.92000, 106.0
16.94000, 90.0
16.96000, 97.0
16.98000, 88.0
17.00000, 95.0
17.02000, 100.0
17.04000, 99.0
17.06000, 99.0
17.08000, 99.0
17.10000, 111.0
17.12000, 129.0
17.14000, 146.0
17.16000, 169.0
17.18000, 235.0
17.20000, 330.0
17.22000, 390.0
17.24000, 487.0
17.26000, 603.0
17.28000, 769.0
17.30000, 885.0
17.32000, 1089.0
17.34000, 1199.0
17.36000, 1251.0
17.38000, 1373.0
17.40000, 1363.0
17.42000, 1362.0
17.44000, 1351.0
17.46000, 1245.0
17.48000, 1116.0
17.50000, 906.0
17.52000, 784.0
17.54000, 661.0
17.56000, 473.0
17.58000, 368.0
17.60000, 273.0
17.62000, 216.0
17.64000, 171.0
17.66000, 146.0
17.68000, 133.0
17.70000, 88.0
17.72000, 109.0
17.74000, 93.0
17.76000, 85.0
17.78000, 83.0
17.80000, 81.0
17.82000, 77.0
17.84000, 78.0
17.86000, 92.0
17.88000, 78.0
17.90000, 77.0
17.92000, 81.0
17.94000, 90.0
17.96000, 71.0
17.98000, 86.0
18.00000, 81.0
18.02000, 91.0
18.04000, 79.0
18.06000, 81.0
18.08000, 76.0
18.10000, 73.0
18.12000, 80.0
18.14000, 75.0
18.16000, 89.0
18.18000, 88.0
18.20000, 77.0
18.22000, 93.0
18.24000, 85.0
18.26000, 71.0
18.28000, 96.0
18.30000, 92.0
18.32000, 79.0
18.34000, 66.0
18.36000, 86.0
18.38000, 73.0
18.40000, 78.0
18.42000, 74.0
18.44000, 74.0
18.46000, 85.0
18.48000, 84.0
18.50000, 70.0
18.52000, 77.0
18.54000, 70.0
18.56000, 70.0
18.58000, 74.0
18.60000, 71.0
18.62000, 72.0
18.64000, 73.0
18.66000, 72.0
18.68000, 69.0
18.70000, 86.0
18.72000, 64.0
18.74000, 67.0
18.76000, 65.0
18.78000, 81.0
18.80000, 69.0
18.82000, 71.0
18.84000, 72.0
18.86000, 68.0
18.88000, 62.0
18.90000, 73.0
18.92000, 78.0
18.94000, 64.0
18.96000, 74.0
18.98000, 71.0
19.00000, 70.0
19.02000, 62.0
19.04000, 59.0
19.06000, 70.0
19.08000, 71.0
19.10000, 72.0
19.12000, 65.0
19.14000, 64.0
19.16000, 67.0
19.18000, 64.0
19.20000, 71.0
19.22000, 61.0
19.24000, 63.0
19.26000, 70.0
19.28000, 64.0
19.30000, 67.0
19.32000, 66.0
19.34000, 91.0
19.36000, 82.0
19.38000, 102.0
19.40000, 116.0
19.42000, 151.0
19.44000, 176.0
19.46000, 192.0
19.48000, 220.0
19.50000, 244.0
19.52000, 257.0
19.54000, 285.0
19.56000, 232.0
19.58000, 259.0
19.60000, 240.0
19.62000, 208.0
19.64000, 203.0
19.66000, 148.0
19.68000, 157.0
19.70000, 134.0
19.72000, 114.0
19.74000, 88.0
19.76000, 93.0
19.78000, 68.0
19.80000, 80.0
19.82000, 79.0
19.84000, 92.0
19.86000, 88.0
19.88000, 89.0
19.90000, 95.0
19.92000, 86.0
19.94000, 93.0
19.96000, 88.0
19.98000, 67.0
20.00000, 67.0
20.02000, 70.0
20.04000, 54.0
20.06000, 51.0
20.08000, 39.0
20.10000, 41.0
20.12000, 54.0
20.14000, 45.0
20.16000, 49.0
20.18000, 53.0
20.20000, 51.0
20.22000, 49.0
20.24000, 50.0
20.26000, 38.0
20.27000, 47.0
#ENDOFDATA   :