File: example_data/EDS-SEM_GaSb.msa
#FORMAT      : EMSA/MAS Spectral Data File
#VERSION     : 1.0
#DATE        :
#TIME        :
#OWNER       :
#NPOINTS     : 1024
#NCOLUMNS    : 1
#DATATYPE    : Y
#SIGNALTYPE  :
#XPERCHAN    : 1.0
#OFFSET      : 0.0
#XLABEL      :
#XUNITS      : channel
#COMMENT     : File created by HyperSpy version 1.3
#TITLE       :
#SPECTRUM    : Spectral Data Starts Here
0.000000,
0.000000,
0.000000,
0.000000,
2.000000,
2.000000,
7.000000,
30,
98,
262,
596,
1061,
1551,
1887,
1926,
1949,
2138,
2672,
3360,
4421,
5886,
7686,
9585,
11080,
11369,
10632,
9725,
9878,
11779,
14985,
18616,
21041,
21518,
20366,
18305,
16363,
14592,
12596,
10635,
8827,
7606,
7086,
6949,
7324,
8025,
8765,
9451,
9919,
10263,
10168,
9980,
9757,
9713,
9957,
10665,
12058,
13825,
15816,
17976,
21093,
27576,
40402,
61944,
89516,
116262,
131404,
128903,
109279,
81187,
53958,
33158,
20468,
14030,
10996,
9762,
9350,
9197,
9304,
9316,
9390,
9486,
9653,
10109,
10465,
10556,
10797,
10845,
10611,
10405,
10288,
10368,
10298,
10340,
10394,
10562,
10909,
11140,
11268,
11456,
11585,
11749,
11975,
12086,
11959,
11762,
11524,
11242,
11023,
10800,
10709,
10721,
10930,
11125,
11091,
11128,
11206,
11367,
11379,
11515,
11501,
11336,
11308,
11247,
11150,
11160,
11041,
10887,
10751,
10598,
10713,
10816,
10624,
10343,
10436,
10474,
10359,
10370,
10304,
10295,
10326,
10233,
10202,
10201,
10098,
10059,
9975,
9980,
9947,
9860,
9824,
9869,
9883,
9800,
9739,
9877,
9885,
9781,
9634,
9493,
9317,
9337,
9381,
9467,
9606,
9884,
10488,
11173,
11934,
12845,
13354,
13358,
13024,
12356,
11613,
10745,
10096,
9782,
9583,
9613,
9992,
10488,
11163,
12596,
15381,
20706,
30781,
45979,
66689,
89967,
110694,
122825,
122370,
110192,
89776,
66646,
46780,
33608,
28104,
29630,
36376,
45775,
55510,
62772,
65400,
62932,
56452,
47715,
38649,
30851,
25065,
21116,
19485,
19461,
20646,
22494,
23279,
22495,
20447,
17759,
14731,
12090,
10376,
9437,
9227,
9791,
10614,
11481,
12065,
12078,
11444,
10489,
9408,
8383,
7518,
7016,
7003,
7251,
7768,
8373,
8699,
8730,
8805,
8550,
8219,
7943,
7622,
7324,
6998,
6702,
6412,
6065,
5824,
5670,
5603,
5692,
5758,
5724,
5683,
5781,
5909,
5792,
5636,
5547,
5570,
5468,
5237,
5156,
5204,
5199,
5180,
5205,
5175,
5202,
5199,
5080,
5008,
5000,
4871,
4839,
4882,
4903,
4900,
4905,
4844,
4777,
4851,
4834,
4726,
4649,
4569,
4635,
4686,
4737,
4749,
4676,
4570,
4554,
4560,
4606,
4656,
4569,
4539,
4479,
4456,
4500,
4444,
4329,
4356,
4407,
4363,
4324,
4346,
4368,
4289,
4284,
4293,
4266,
4266,
4205,
4163,
4170,
4135,
4098,
4184,
4172,
4077,
4104,
4107,
4060,
4056,
4035,
3994,
3962,
3977,
3928,
3893,
3932,
3935,
3938,
3903,
3825,
3831,
3789,
3779,
3814,
3824,
3831,
3788,
3828,
3783,
3776,
3794,
3747,
3677,
3671,
3707,
3683,
3684,
3717,
3687,
3692,
3661,
3690,
3683,
3649,
3737,
3848,
3898,
3925,
3989,
4075,
4117,
4125,
4053,
3972,
3859,
3739,
3728,
3720,
3761,
3798,
3807,
3877,
3916,
3904,
3831,
3743,
3723,
3625,
3507,
3435,
3448,
3475,
3394,
3378,
3376,
3309,
3306,
3368,
3307,
3194,
3186,
3160,
3082,
3046,
3068,
3041,
3032,
2997,
2987,
3040,
3065,
3007,
2932,
2894,
2857,
2847,
2822,
2753,
2712,
2735,
2734,
2751,
2828,
2759,
2719,
2750,
2685,
2615,
2611,
2624,
2620,
2572,
2543,
2560,
2577,
2580,
2535,
2475,
2556,
2538,
2401,
2421,
2466,
2477,
2520,
2491,
2389,
2358,
2356,
2359,
2352,
2332,
2361,
2377,
2360,
2332,
2283,
2318,
2368,
2413,
2467,
2691,
3112,
3726,
4679,
6055,
7669,
9453,
11453,
13232,
14340,
14746,
14272,
13002,
11384,
9503,
7418,
5773,
4552,
3551,
2972,
2576,
2340,
2222,
2111,
2045,
2042,
2021,
1951,
1918,
1891,
1929,
1966,
1989,
1965,
1911,
1872,
1883,
1927,
1926,
1863,
1787,
1830,
1814,
1794,
1816,
1808,
1830,
1830,
1812,
1837,
1830,
1826,
1894,
1988,
2127,
2289,
2495,
2747,
3009,
3263,
3439,
3462,
3372,
3288,
3081,
2786,
2543,
2276,
2106,
1953,
1754,
1650,
1588,
1585,
1589,
1549,
1508,
1478,
1495,
1508,
1491,
1460,
1440,
1431,
1430,
1407,
1384,
1403,
1384,
1345,
1341,
1369,
1381,
1343,
1300,
1322,
1356,
1297,
1291,
1349,
1298,
1277,
1308,
1308,
1323,
1317,
1285,
1278,
1256,
1239,
1291,
1274,
1214,
1205,
1219,
1231,
1240,
1242,
1198,
1154,
1127,
1148,
1167,
1136,
1119,
1142,
1160,
1164,
1129,
1102,
1106,
1064,
1042,
1030,
1039,
1041,
1022,
1021,
1042,
1035,
1017,
990,
967,
977,
986,
983,
976,
941,
944,
936,
945,
930,
874,
916,
912,
888,
905,
869,
849,
866,
876,
888,
864,
840,
868,
869,
854,
854,
832,
815,
831,
814,
795,
788,
772,
782,
771,
761,
767,
744,
722,
740,
757,
780,
783,
765,
747,
747,
784,
820,
840,
843,
832,
781,
757,
767,
733,
701,
675,
679,
704,
691,
666,
665,
671,
677,
659,
637,
622,
599,
595,
607,
593,
562,
558,
569,
571,
559,
506,
500,
516,
503,
480,
477,
463,
457,
470,
473,
458,
441,
449,
439,
423,
422,
440,
443,
429,
427,
422,
425,
414,
390,
411,
415,
387,
383,
378,
360,
360,
356,
365,
349,
318,
339,
340,
322,
318,
309,
291,
284,
295,
293,
271,
261,
266,
257,
243,
257,
259,
242,
234,
234,
227,
217,
220,
204,
188,
198,
196,
178,
179,
195,
183,
153,
160,
164,
165,
164,
150,
145,
140,
151,
134,
115,
113,
115,
109,
106,
103,
107,
102,
92,
103,
104,
93,
88,
93,
97,
84,
79,
79,
83,
90,
95,
92,
88,
94,
89,
83,
83,
87,
82,
84,
81,
74,
82,
80,
69,
67,
69,
73,
69,
68,
66,
65,
67,
75,
78,
69,
68,
81,
79,
64,
60,
71,
78,
76,
71,
62,
62,
61,
63,
70,
64,
64,
70,
69,
66,
65,
67,
60,
60,
59,
58,
64,
65,
56,
54,
54,
62,
72,
61,
56,
55,
57,
55,
54,
53,
50,
49,
55,
58,
54,
59,
57,
51,
52,
50,
56,
61,
48,
44,
52,
53,
43,
38,
42,
42,
38,
43,
43,
49,
42,
39,
41,
48,
46,
49,
52,
45,
43,
46,
44,
42,
44,
43,
33,
31,
32,
33,
40,
40,
40,
46,
41,
30,
38,
42,
36,
32,
23,
28,
36,
36,
40,
35,
29,
32,
33,
26,
29,
26,
25,
27,
28,
31,
25,
24,
30,
31,
28,
24,
25,
26,
26,
23,
25,
26,
24,
27,
32,
30,
18,
21,
27,
28,
27,
27,
27,
27,
32,
32,
29,
32,
38,
30,
27,
27,
26,
25,
19,
16,
20,
24,
21,
20,
20,
19,
23,
18,
20,
22,
25,
22,
17,
17,
22,
18,
22,
23,
16,
16,
21,
21,
20,
16,
16,
14,
15,
21,
22,
19,
15,
11,
13,
15,
15,
14,
17,
18,
15,
11,
11,
19,
19,
14,
16,
22,
15,
13,
14,
11,
6.000000,
8.000000,
14,
15,
14,
13,
12,
14,
11,
10,
14,
13,
14,
13,
10,
10,
14,
12,
13,
15,
11,
13,
14,
8.000000,
10,
13,
11,
13,
12,
13,
#ENDOFDATA   : End Of Data and File