File: example_data/unknown_not_calibrated.msa
#FORMAT      : EMSA/MAS Spectral Data File
#VERSION     : 1.0
#DATE        :
#TIME        :
#OWNER       :
#NPOINTS     : 2048
#NCOLUMNS    : 1
#DATATYPE    : Y
#SIGNALTYPE  :
#XPERCHAN    : 1.0
#OFFSET      : 0.0
#XLABEL      :
#XUNITS      : channel
#COMMENT     : File created by HyperSpy version 1.3
#TITLE       :
#SPECTRUM    : Spectral Data Starts Here
0.000000,
0.000000,
0.000000,
0.000000,
0.000000,
0.000000,
0.000000,
6.000000,
77,
551,
1531,
2507,
3255,
2367,
739,
95,
16,
13,
10,
11,
7.000000,
18,
24,
42,
39,
21,
16,
9.000000,
15,
23,
36,
50,
54,
37,
35,
37,
37,
25,
17,
21,
20,
14,
10,
16,
17,
13,
21,
27,
21,
29,
35,
33,
29,
30,
38,
60,
84,
96,
85,
70,
57,
55,
104,
238,
423,
613,
561,
388,
181,
78,
37,
27,
23,
18,
18,
17,
18,
20,
18,
20,
15,
28,
26,
21,
36,
33,
29,
28,
31,
25,
20,
25,
32,
32,
34,
46,
50,
56,
55,
56,
66,
63,
83,
79,
88,
73,
55,
58,
40,
44,
54,
52,
46,
38,
45,
59,
51,
55,
42,
42,
40,
41,
52,
43,
41,
30,
30,
42,
42,
49,
57,
42,
43,
45,
48,
41,
46,
38,
56,
49,
50,
50,
57,
53,
57,
51,
45,
54,
53,
52,
63,
51,
57,
56,
57,
61,
47,
55,
53,
44,
44,
39,
42,
41,
39,
55,
80,
90,
103,
127,
147,
114,
77,
74,
63,
53,
54,
52,
47,
65,
66,
63,
82,
101,
113,
211,
412,
799,
1324,
1934,
2296,
2268,
1749,
1170,
627,
330,
186,
173,
251,
411,
686,
963,
1156,
1234,
1053,
855,
670,
517,
367,
263,
194,
186,
205,
254,
319,
351,
323,
269,
196,
124,
102,
71,
70,
66,
66,
124,
137,
160,
149,
143,
97,
79,
54,
48,
46,
45,
52,
81,
86,
80,
92,
66,
70,
62,
54,
38,
35,
32,
24,
33,
28,
28,
31,
29,
29,
25,
28,
32,
25,
33,
31,
27,
33,
33,
27,
26,
24,
31,
29,
25,
32,
35,
30,
29,
33,
27,
25,
23,
36,
29,
35,
36,
39,
33,
36,
33,
26,
35,
30,
35,
27,
36,
29,
38,
38,
28,
32,
29,
25,
34,
39,
31,
33,
34,
28,
29,
37,
30,
33,
35,
39,
31,
39,
31,
24,
28,
31,
26,
31,
28,
32,
31,
31,
28,
36,
40,
42,
42,
52,
59,
49,
59,
45,
43,
37,
37,
37,
21,
31,
33,
28,
40,
30,
31,
31,
27,
35,
26,
40,
34,
32,
38,
43,
43,
49,
44,
39,
50,
48,
46,
37,
34,
31,
34,
39,
32,
36,
28,
28,
30,
30,
34,
25,
37,
28,
28,
31,
27,
25,
32,
34,
32,
36,
33,
33,
29,
33,
32,
34,
22,
29,
25,
34,
41,
31,
31,
35,
29,
28,
29,
27,
34,
41,
52,
89,
157,
230,
379,
597,
744,
962,
1024,
1079,
1021,
832,
632,
470,
266,
166,
91,
69,
42,
34,
23,
28,
21,
23,
28,
35,
37,
29,
22,
28,
30,
35,
37,
30,
32,
28,
26,
29,
28,
29,
36,
37,
40,
37,
40,
60,
67,
93,
114,
148,
162,
193,
174,
179,
167,
137,
101,
72,
74,
82,
115,
179,
302,
472,
758,
1060,
1346,
1660,
1836,
1792,
1696,
1473,
1108,
759,
500,
309,
194,
107,
71,
40,
30,
25,
18,
21,
23,
25,
27,
24,
24,
19,
23,
25,
18,
29,
24,
32,
20,
26,
23,
27,
20,
25,
25,
25,
22,
24,
23,
30,
29,
31,
28,
39,
52,
70,
102,
147,
183,
204,
249,
269,
263,
259,
238,
172,
129,
100,
56,
44,
35,
27,
22,
20,
18,
18,
14,
14,
21,
18,
18,
17,
22,
26,
20,
19,
23,
20,
14,
21,
19,
22,
16,
10,
16,
14,
18,
16,
17,
14,
12,
14,
23,
19,
18,
23,
21,
20,
22,
14,
21,
15,
15,
19,
21,
15,
26,
17,
23,
25,
30,
25,
18,
14,
24,
13,
19,
20,
17,
21,
14,
20,
17,
20,
16,
13,
16,
13,
16,
19,
13,
17,
25,
14,
15,
13,
15,
21,
13,
14,
12,
10,
16,
18,
23,
17,
17,
18,
13,
13,
15,
14,
16,
16,
16,
26,
18,
18,
17,
12,
21,
16,
15,
15,
13,
12,
16,
15,
14,
11,
17,
16,
12,
16,
10,
13,
18,
18,
19,
13,
12,
11,
19,
16,
14,
13,
10,
14,
17,
15,
9.000000,
15,
12,
16,
12,
16,
13,
19,
15,
13,
13,
14,
19,
20,
10,
15,
10,
21,
12,
10,
15,
15,
11,
12,
9.000000,
11,
16,
13,
15,
15,
13,
14,
12,
20,
17,
15,
15,
14,
12,
11,
9.000000,
17,
14,
12,
14,
7.000000,
13,
9.000000,
13,
12,
13,
11,
18,
13,
11,
9.000000,
13,
15,
14,
10,
16,
14,
11,
10,
17,
11,
11,
12,
13,
13,
11,
8.000000,
9.000000,
11,
13,
14,
10,
9.000000,
8.000000,
8.000000,
13,
15,
9.000000,
14,
11,
8.000000,
8.000000,
12,
9.000000,
8.000000,
12,
10,
14,
13,
8.000000,
9.000000,
17,
8.000000,
6.000000,
15,
12,
13,
8.000000,
15,
9.000000,
8.000000,
11,
11,
14,
10,
15,
6.000000,
11,
8.000000,
11,
14,
14,
7.000000,
8.000000,
7.000000,
12,
10,
12,
9.000000,
11,
6.000000,
8.000000,
7.000000,
11,
11,
10,
10,
13,
12,
12,
12,
10,
5.000000,
13,
11,
6.000000,
8.000000,
5.000000,
16,
10,
13,
12,
11,
8.000000,
7.000000,
6.000000,
7.000000,
10,
6.000000,
15,
6.000000,
6.000000,
10,
11,
10,
9.000000,
9.000000,
8.000000,
8.000000,
12,
11,
6.000000,
6.000000,
5.000000,
16,
11,
7.000000,
11,
8.000000,
12,
9.000000,
7.000000,
5.000000,
8.000000,
5.000000,
8.000000,
6.000000,
13,
9.000000,
8.000000,
8.000000,
7.000000,
12,
6.000000,
6.000000,
10,
7.000000,
9.000000,
6.000000,
10,
6.000000,
9.000000,
4.000000,
5.000000,
9.000000,
10,
8.000000,
3.000000,
7.000000,
7.000000,
10,
10,
5.000000,
10,
8.000000,
9.000000,
5.000000,
9.000000,
10,
6.000000,
8.000000,
7.000000,
8.000000,
7.000000,
11,
12,
10,
7.000000,
4.000000,
4.000000,
5.000000,
10,
7.000000,
3.000000,
6.000000,
9.000000,
5.000000,
7.000000,
7.000000,
6.000000,
10,
9.000000,
9.000000,
6.000000,
8.000000,
6.000000,
10,
8.000000,
3.000000,
6.000000,
6.000000,
7.000000,
7.000000,
8.000000,
7.000000,
5.000000,
4.000000,
6.000000,
5.000000,
6.000000,
5.000000,
9.000000,
9.000000,
5.000000,
6.000000,
8.000000,
5.000000,
5.000000,
8.000000,
7.000000,
4.000000,
6.000000,
5.000000,
5.000000,
6.000000,
5.000000,
8.000000,
6.000000,
9.000000,
4.000000,
6.000000,
4.000000,
8.000000,
9.000000,
3.000000,
6.000000,
6.000000,
9.000000,
7.000000,
3.000000,
6.000000,
7.000000,
6.000000,
5.000000,
4.000000,
5.000000,
5.000000,
5.000000,
6.000000,
9.000000,
4.000000,
7.000000,
4.000000,
6.000000,
5.000000,
3.000000,
5.000000,
4.000000,
8.000000,
5.000000,
4.000000,
8.000000,
3.000000,
11,
3.000000,
3.000000,
6.000000,
7.000000,
8.000000,
5.000000,
8.000000,
6.000000,
3.000000,
9.000000,
4.000000,
7.000000,
4.000000,
9.000000,
5.000000,
5.000000,
5.000000,
5.000000,
6.000000,
5.000000,
6.000000,
7.000000,
7.000000,
6.000000,
5.000000,
5.000000,
4.000000,
3.000000,
10,
2.000000,
7.000000,
5.000000,
5.000000,
3.000000,
4.000000,
4.000000,
5.000000,
3.000000,
5.000000,
5.000000,
4.000000,
9.000000,
4.000000,
8.000000,
4.000000,
5.000000,
4.000000,
5.000000,
3.000000,
5.000000,
9.000000,
3.000000,
4.000000,
5.000000,
5.000000,
#ENDOFDATA   : End Of Data and File